{
   "resourceType":"Bundle",
   "id":"NUMERFail-SBP139DBP89TakenDuringEMER",
   "type":"collection",
   "entry":[
      {
         "fullUrl":"http://local/Patient/Patient-7",
         "resource":{
            "resourceType":"Patient",
            "id":"Patient-7",
            "meta":{
               "profile":[
                  "http://hl7.org/fhir/us/qicore/StructureDefinition/qicore-patient"
               ]
            },
            "extension":[
               {
                  "url":"http://hl7.org/fhir/us/core/StructureDefinition/us-core-race",
                  "extension":[
                     {
                        "url":"ombCategory",
                        "valueCoding":{
                           "code":"2028-9",
                           "system":"urn:oid:2.16.840.1.113883.6.238",
                           "display":"Asian"
                        }
                     },
                     {
                        "url":"text",
                        "valueString":"Asian"
                     }
                  ]
               },
               {
                  "url":"http://hl7.org/fhir/us/core/StructureDefinition/us-core-ethnicity",
                  "extension":[
                     {
                        "url":"ombCategory",
                        "valueCoding":{
                           "code":"2135-2",
                           "system":"urn:oid:2.16.840.1.113883.6.238",
                           "display":"Hispanic or Latino"
                        }
                     },
                     {
                        "url":"text",
                        "valueString":"Hispanic or Latino"
                     }
                  ]
               }
            ],
            "identifier":[
               {
                  "system":"http://hospital.smarthealthit.org",
                  "value":"999999995"
               }
            ],
            "name":[
               {
                  "family":"Bertha",
                  "given":[
                     "Betty"
                  ]
               }
            ],
            "birthDate":"2005-12-31",
            "gender":"female"
         }
      },
      {
         "fullUrl":"633c9d020968f8012250fc61",
         "resource":{
            "resourceType":"Encounter",
            "id":"Encounter-7",
            "meta":{
               "profile":[
                  "http://hl7.org/fhir/us/qicore/StructureDefinition/qicore-encounter"
               ]
            },
            "subject":{
               "reference":"http://local/Patient/Patient-7"
            },
            "status":"finished",
            "class":{
               "code":"AMB",
               "system":"http://terminology.hl7.org/CodeSystem/v3-ActCode",
               "display":"ambulatory"
            },
            "type":[
               {
                  "coding":[
                     {
                        "code":"3391000175108",
                        "system":"http://snomed.info/sct",
                        "display":"Office visit for pediatric care and assessment (procedure)"
                     }
                  ]
               }
            ],
            "period":{
               "start":"2024-01-01T00:00:00.000Z",
               "end":"2024-01-01T01:00:00.000Z"
            }
         }
      },
      {
         "fullUrl":"633c9d020968f8012250fc62",
         "resource":{
            "resourceType":"Condition",
            "id":"Condition-7",
            "meta":{
               "profile":[
                  "http://hl7.org/fhir/us/qicore/StructureDefinition/qicore-condition"
               ]
            },
            "category":[
               {
                  "coding":[
                     {
                        "code":"problem-list-item",
                        "system":"http://terminology.hl7.org/CodeSystem/condition-category",
                        "display":"Problem List Item"
                     }
                  ]
               }
            ],
            "subject":{
               "reference":"http://local/Patient/Patient-7"
            },
            "code":{
               "coding":[
                  {
                     "code":"371125006",
                     "system":"http://snomed.info/sct",
                     "display":"Labile essential hypertension (disorder)"
                  }
               ]
            },
            "onsetDateTime":"2024-06-30T23:59:59.000Z",
            "clinicalStatus":{
               "coding":[
                  {
                     "code":"active",
                     "system":"http://terminology.hl7.org/CodeSystem/condition-clinical"
                  }
               ]
            }
         }
      },
      {
         "fullUrl":"633c9d020968f8012250fc63",
         "resource":{
            "resourceType":"Observation",
            "id":"Observation-7",
            "meta":{
               "profile":[
                  "http://hl7.org/fhir/StructureDefinition/bp"
               ]
            },
            "subject":{
               "reference":"http://local/Patient/Patient-7"
            },
            "category":[
               {
                  "coding":[
                     {
                        "code":"vital-signs",
                        "system":"http://terminology.hl7.org/CodeSystem/observation-category",
                        "display":"Vital Signs"
                     }
                  ],
                  "text":"Vital Signs"
               }
            ],
            "code":{
               "coding":[
                  {
                     "code":"85354-9",
                     "system":"http://loinc.org",
                     "display":"Blood pressure panel with all children optional"
                  }
               ]
            },
            "component":[
               {
                  "code":{
                     "coding":[
                        {
                           "code":"8480-6",
                           "system":"http://loinc.org",
                           "display":"Systolic blood pressure"
                        }
                     ]
                  },
                  "valueQuantity":{
                     "value":139,
                     "code":"mm[Hg]",
                     "system":"http://unitsofmeasure.org",
                     "unit":"mmHg"
                  }
               },
               {
                  "code":{
                     "coding":[
                        {
                           "code":"8462-4",
                           "system":"http://loinc.org",
                           "display":"Diastolic blood pressure"
                        }
                     ]
                  },
                  "valueQuantity":{
                     "value":89,
                     "code":"mm[Hg]",
                     "system":"http://unitsofmeasure.org",
                     "unit":"mmHg"
                  }
               }
            ],
            "status":"final",
            "effectiveDateTime":"2024-01-01T00:00:00.000Z",
            "encounter":{
               "reference":"Encounter/Encounter-7-1"
            }
         }
      },
      {
         "fullUrl":"633c9d020968f8012250fc64",
         "resource":{
            "resourceType":"Encounter",
            "id":"Encounter-7-1",
            "meta":{
               "profile":[
                  "http://hl7.org/fhir/us/qicore/StructureDefinition/qicore-encounter"
               ]
            },
            "subject":{
               "reference":"http://local/Patient/Patient-7"
            },
            "status":"finished",
            "class":{
               "code":"EMER",
               "system":"http://terminology.hl7.org/CodeSystem/v3-ActCode",
               "display":"emergency"
            },
            "type":[
               {
                  "coding":[
                     {
                        "code":"4525004",
                        "system":"http://snomed.info/sct",
                        "display":"Emergency department patient visit (procedure)"
                     }
                  ]
               }
            ],
            "period":{
               "start":"2024-01-01T00:00:00.000Z",
               "end":"2024-01-01T01:00:00.000Z"
            }
         }
      }
   ]
}